Folder: FP/Stefans_V44/datastefan

Note: README.md
# FP

Hier schreiben wir unsere Berichte f√ºr das Physik Fortgeschrittenen Praktikum :D

File: omega_scan_1.UXD
; C:\DIFFDAT1\Praktikum\Christian_Stefan\omega_scan_1.raw(Diffrac Plus V1.01 file) converted by XCH V1.0
_FILEVERSION=2
_SITE='Deutschland'
_USER='Administrator'
_GONIOMETER_CODE=4885
; D8 Theta/Theta; Special
_SAMPLE_CHANGER_CODE=0
_ATTACHMENTS_CODE=0
_GONIOMETER_RADIUS=350
_FIXED_DIVSLIT=0.600000
_FIXED_SAMPLESLIT=0.000000
_FIXED_DETSLIT=11.66
_MONOCHROMATOR=0
; None
_THIN_FILM='N'
_BETA_FILTER='Y'
_FIXED_ANTISLIT=8.340000
_ANALYZER_CODE=0
; None
_DATEMEASURED='16-Oct-2023 11:15:18'
_WL_UNIT='A'
_WL1=1.540600
_WL2=1.544390
_WL3=1.392220
_WLRATIO=0.500000
_ANODE='Cu'
; (Data for Range number 1)
_DRIVE='THETA'
_STEPTIME=5.000660
_STEPSIZE=0.005000
_STEPMODE='C'
_START=0.000000
_THETA=0.000000
_2THETA=0.000000
_KHI=0.000000
_PHI=90
_X=1.577000
_Y=1.000000
_Z=0.275000
_DIVERGENCE=0.000000
_ANTISCATTER=0.000000
_DETECTOR=5
_DETECTORSLIT='unkn'
_AUX1=0.000000
_AUX2=0.000000
_AUX3=0.000000
_TIMESTARTED=2.000000
_TEMP_RATE=-1.000000
_TEMP_DELAY=-1.000000
_KV=40
_MA=35
_RANGE_WL=1.540600
_3DPLANE=0
_GONIOMETER=-0.002500
_PSDCHANNEL0=0
_2THETACOUNTS
   0.0000   2355270
   0.0100   3762390
   0.0200   4224280
   0.0300   3559930
   0.0400   2434860
   0.0500   1386620
   0.0600    845964
   0.0700    573362
   0.0800    516732
   0.0900    492434
   0.1000    398016
   0.1100    391894
   0.1200    415475
   0.1300    442625
   0.1400    474162
   0.1500    506128
   0.1600    530797
   0.1700    535915
   0.1800    522585
   0.1900    560287
   0.2000    568282
   0.2100    616660
   0.2200    579497
   0.2300    523675
   0.2400    351329
   0.2500    152278
   0.2600     73389
   0.2700     75857
   0.2800     69380
   0.2900     39564
   0.3000     20839
   0.3100     24438
   0.3200     29180
   0.3300     22530
   0.3400     11860
   0.3500      9402
   0.3600     13193
   0.3700     14150
   0.3800     10106
   0.3900      5590
   0.4000      5300
   0.4100      7298
   0.4200      7562
   0.4300      5441
   0.4400      3127
   0.4500      3141
   0.4600      4290
   0.4700      4734
   0.4800      3300
   0.4900      2017
   0.5000      2074
   0.5100      2776
   0.5200      3007
   0.5300      2367
   0.5400      1490
   0.5500      1399
   0.5600      1769
   0.5700      1947
   0.5800      1700
   0.5900      1066
   0.6000       957
   0.6100      1236
   0.6200      1360
   0.6300      1213
   0.6400       837
   0.6500       668
   0.6600       807
   0.6700       913
   0.6800       879
   0.6900       671
   0.7000       521
   0.7100       585
   0.7200       692
   0.7300       662
   0.7400       532
   0.7500       422
   0.7600       437
   0.7700       496
   0.7800       503
   0.7900       400
   0.8000       327
   0.8100       324
   0.8200       370
   0.8300       350
   0.8400       366
   0.8500       288
   0.8600       252
   0.8700       264
   0.8800       300
   0.8900       300
   0.9000       224
   0.9100       219
   0.9200       228
   0.9300       256
   0.9400       251
   0.9500       199
   0.9600       165
   0.9700       156
   0.9800       170
   0.9900       167
   1.0000       155
   1.0100       115
   1.0200       106
   1.0300       118
   1.0400       146
   1.0500       123
   1.0600        85
   1.0700        88
   1.0800       102
   1.0900       106
   1.1000        86
   1.1100        94
   1.1200        68
   1.1300        65
   1.1400        70
   1.1500        73
   1.1600        74
   1.1700        69
   1.1800        66
   1.1900        59
   1.2000        60
   1.2100        47
   1.2200        50
   1.2300        46
   1.2400        53
   1.2500        34
   1.2600        43
   1.2700        34
   1.2800        27
   1.2900        33
   1.3000        39
   1.3100        42
   1.3200        24
   1.3300        22
   1.3400        22
   1.3500        24
   1.3600        14
   1.3700        40
   1.3800        17
   1.3900        22
   1.4000        20
   1.4100        23
   1.4200        20
   1.4300        18
   1.4400        14
   1.4500        24
   1.4600        21
   1.4700        12
   1.4800        11
   1.4900        15
   1.5000        16
   1.5100        12
   1.5200         7
   1.5300        14
   1.5400        13
   1.5500        17
   1.5600        14
   1.5700        18
   1.5800        19
   1.5900        11
   1.6000        13
   1.6100        11
   1.6200        13
   1.6300        10
   1.6400         9
   1.6500         5
   1.6600         7
   1.6700         9
   1.6800         6
   1.6900         4
   1.7000         7
   1.7100        14
   1.7200         6
   1.7300         4
   1.7400         3
   1.7500         4
   1.7600        13
   1.7700         6
   1.7800        12
   1.7900         6
   1.8000         6
   1.8100         0
   1.8200         6
   1.8300         5
   1.8400         4
   1.8500         1
   1.8600         3
   1.8700         8
   1.8800         3
   1.8900         5
   1.9000         9
   1.9100         4
   1.9200         5
   1.9300         7
   1.9400         4
   1.9500         1
   1.9600         2
   1.9700         6
   1.9800         0
   1.9900         1
   2.0000         3
   2.0100         3
   2.0200         6
   2.0300         4
   2.0400         3
   2.0500         1
   2.0600         3
   2.0700         0
   2.0800         4
   2.0900         1
   2.1000         2
   2.1100         1
   2.1200         4
   2.1300         2
   2.1400         0
   2.1500         0
   2.1600         1
   2.1700         2
   2.1800         3
   2.1900         2
   2.2000         3
   2.2100         0
   2.2200         0
   2.2300         1
   2.2400         3
   2.2500         5
   2.2600         0
   2.2700         0
   2.2800         2
   2.2900         3
   2.3000         2
   2.3100         1
   2.3200         1
   2.3300         1
   2.3400         3
   2.3500         0
   2.3600         3
   2.3700         0
   2.3800         1
   2.3900         1
   2.4000         0
   2.4100         2
   2.4200         3
   2.4300         1
   2.4400         0
   2.4500         2
   2.4600         1
   2.4700         2
   2.4800         2
   2.4900         1
   2.5000         0

File: omega_scan_background.UXD
; C:\DIFFDAT1\Praktikum\Christian_Stefan\omega_scan_background.raw(Diffrac Plus V1.01 file) converted by XCH V1.0
_FILEVERSION=2
_SITE='Deutschland'
_USER='Administrator'
_GONIOMETER_CODE=4885
; D8 Theta/Theta; Special
_SAMPLE_CHANGER_CODE=0
_ATTACHMENTS_CODE=0
_GONIOMETER_RADIUS=350
_FIXED_DIVSLIT=0.600000
_FIXED_SAMPLESLIT=0.000000
_FIXED_DETSLIT=11.66
_MONOCHROMATOR=0
; None
_THIN_FILM='N'
_BETA_FILTER='Y'
_FIXED_ANTISLIT=8.340000
_ANALYZER_CODE=0
; None
_DATEMEASURED='16-Oct-2023 12:00:09'
_WL_UNIT='A'
_WL1=1.540600
_WL2=1.544390
_WL3=1.392220
_WLRATIO=0.500000
_ANODE='Cu'
; (Data for Range number 1)
_DRIVE='THETA'
_STEPTIME=5.000660
_STEPSIZE=0.005000
_STEPMODE='C'
_START=0.000000
_THETA=0.000000
_2THETA=0.200000
_KHI=0.000000
_PHI=90
_X=1.577000
_Y=1.000000
_Z=0.275000
_DIVERGENCE=0.000000
_ANTISCATTER=0.000000
_DETECTOR=5
_DETECTORSLIT='unkn'
_AUX1=0.000000
_AUX2=0.000000
_AUX3=0.000000
_TIMESTARTED=1.000000
_TEMP_RATE=-1.000000
_TEMP_DELAY=-1.000000
_KV=40
_MA=35
_RANGE_WL=1.540600
_3DPLANE=0
_GONIOMETER=0.197500
_PSDCHANNEL0=0
_2THETACOUNTS
   0.0000     75967
   0.0100     44858
   0.0200     32613
   0.0300     24035
   0.0400     19270
   0.0500     15928
   0.0600     11139
   0.0700      8416
   0.0800      6729
   0.0900      5848
   0.1000      5255
   0.1100      4691
   0.1200      4306
   0.1300      3997
   0.1400      3842
   0.1500      3650
   0.1600      3335
   0.1700      3161
   0.1800      2857
   0.1900      2508
   0.2000      2213
   0.2100      1817
   0.2200      1544
   0.2300      1319
   0.2400      1110
   0.2500       953
   0.2600       840
   0.2700       772
   0.2800       644
   0.2900       525
   0.3000       401
   0.3100       323
   0.3200       227
   0.3300       113
   0.3400        83
   0.3500        38
   0.3600        49
   0.3700        43
   0.3800        41
   0.3900        46
   0.4000        29
   0.4100        38
   0.4200        31
   0.4300        28
   0.4400        26
   0.4500        21
   0.4600        24
   0.4700        28
   0.4800        29
   0.4900        17
   0.5000        15
   0.5100        20
   0.5200        24
   0.5300        25
   0.5400        23
   0.5500        25
   0.5600        25
   0.5700        12
   0.5800        23
   0.5900        24
   0.6000        22
   0.6100        17
   0.6200        27
   0.6300        19
   0.6400        21
   0.6500        13
   0.6600        18
   0.6700        20
   0.6800        20
   0.6900        16
   0.7000        19
   0.7100        16
   0.7200        23
   0.7300        23
   0.7400        17
   0.7500        13
   0.7600        12
   0.7700        22
   0.7800        18
   0.7900        22
   0.8000        33
   0.8100        24
   0.8200        18
   0.8300        34
   0.8400        26
   0.8500        24
   0.8600        18
   0.8700        20
   0.8800        10
   0.8900        11
   0.9000         8
   0.9100         1
   0.9200         5
   0.9300         5
   0.9400         6
   0.9500         5
   0.9600         4
   0.9700         3
   0.9800         4
   0.9900         1
   1.0000         2
   1.0100         2
   1.0200         1
   1.0300         4
   1.0400         2
   1.0500         3
   1.0600         6
   1.0700         5
   1.0800         2
   1.0900         3
   1.1000         3
   1.1100         0
   1.1200         3
   1.1300         2
   1.1400         5
   1.1500         2
   1.1600         3
   1.1700         3
   1.1800         1
   1.1900         2
   1.2000         4
   1.2100         1
   1.2200         0
   1.2300         3
   1.2400         0
   1.2500         0
   1.2600         1
   1.2700         1
   1.2800         1
   1.2900         1
   1.3000         2
   1.3100         2
   1.3200         1
   1.3300         0
   1.3400         0
   1.3500         1
   1.3600         0
   1.3700         3
   1.3800         0
   1.3900         1
   1.4000         0
   1.4100         1
   1.4200         3
   1.4300         1
   1.4400         4
   1.4500         4
   1.4600         1
   1.4700         1
   1.4800         0
   1.4900         1
   1.5000         0
   1.5100         1
   1.5200         2
   1.5300         3
   1.5400         0
   1.5500         1
   1.5600         2
   1.5700         1
   1.5800         1
   1.5900         0
   1.6000         3
   1.6100         0
   1.6200         2
   1.6300         0
   1.6400         1
   1.6500         0
   1.6600         2
   1.6700         2
   1.6800         0
   1.6900         2
   1.7000         0
   1.7100         1
   1.7200         0
   1.7300         0
   1.7400         0
   1.7500         1
   1.7600         1
   1.7700         1
   1.7800         0
   1.7900         0
   1.8000         0
   1.8100         0
   1.8200         0
   1.8300         1
   1.8400         0
   1.8500         0
   1.8600         1
   1.8700         0
   1.8800         0
   1.8900         3
   1.9000         2
   1.9100         0
   1.9200         0
   1.9300         1
   1.9400         1
   1.9500         0
   1.9600         0
   1.9700         0
   1.9800         0
   1.9900         1
   2.0000         2
   2.0100         0
   2.0200         1
   2.0300         2
   2.0400         2
   2.0500         1
   2.0600         0
   2.0700         3
   2.0800         0
   2.0900         1
   2.1000         0
   2.1100         0
   2.1200         1
   2.1300         2
   2.1400         0
   2.1500         0
   2.1600         3
   2.1700         2
   2.1800         0
   2.1900         2
   2.2000         1
   2.2100         0
   2.2200         1
   2.2300         1
   2.2400         0
   2.2500         1
   2.2600         0
   2.2700         2
   2.2800         0
   2.2900         0
   2.3000         2
   2.3100         3
   2.3200         0
   2.3300         1
   2.3400         0
   2.3500         0
   2.3600         1
   2.3700         0
   2.3800         0
   2.3900         0
   2.4000         1
   2.4100         0
   2.4200         0
   2.4300         0
   2.4400         0
   2.4500         1
   2.4600         0
   2.4700         0
   2.4800         2
   2.4900         0
   2.5000         3

File: rocking_scan_1.UXD
; C:\DIFFDAT1\Praktikum\Christian_Stefan\rocking_scan_1.raw(Diffrac Plus V1.01 file) converted by XCH V1.0
_FILEVERSION=2
_SITE='Deutschland'
_USER='Administrator'
_GONIOMETER_CODE=4885
; D8 Theta/Theta; Special
_SAMPLE_CHANGER_CODE=0
_ATTACHMENTS_CODE=0
_GONIOMETER_RADIUS=350
_FIXED_DIVSLIT=0.600000
_FIXED_SAMPLESLIT=0.000000
_FIXED_DETSLIT=11.66
_MONOCHROMATOR=0
; None
_THIN_FILM='N'
_BETA_FILTER='Y'
_FIXED_ANTISLIT=8.340000
_ANALYZER_CODE=0
; None
_DATEMEASURED='16-Oct-2023 10:14:07'
_WL_UNIT='A'
_WL1=1.540600
_WL2=1.544390
_WL3=1.392220
_WLRATIO=0.500000
_ANODE='Cu'
; (Data for Range number 1)
_DRIVE='THETA'
_STEPTIME=1.000000
_STEPSIZE=0.040000
_STEPMODE='C'
_START=-1.000000
_THETA=-1.000000
_2THETA=0.000000
_KHI=0.000000
_PHI=90
_X=1.524000
_Y=2.000000
_Z=0.249000
_DIVERGENCE=0.000000
_ANTISCATTER=0.000000
_DETECTOR=5
_DETECTORSLIT='unkn'
_AUX1=0.000000
_AUX2=0.000000
_AUX3=0.000000
_TIMESTARTED=2.000000
_TEMP_RATE=-1.000000
_TEMP_DELAY=-1.000000
_KV=40
_MA=35
_RANGE_WL=1.540600
_3DPLANE=0
_GONIOMETER=0.000000
_PSDCHANNEL0=0
_2THETACOUNTS
  -1.0000     95658
  -0.9600    103990
  -0.9200    115364
  -0.8800    128187
  -0.8400    141475
  -0.8000    154448
  -0.7600    166854
  -0.7200    179572
  -0.6800    191676
  -0.6400    220829
  -0.6000    232205
  -0.5600    244221
  -0.5200    262833
  -0.4800    278278
  -0.4400    292245
  -0.4000    308993
  -0.3600    324240
  -0.3200    339131
  -0.2800    360659
  -0.2400    376609
  -0.2000    397520
  -0.1600    412309
  -0.1200    429705
  -0.0800    444486
  -0.0400    463114
   0.0000    470398
   0.0400    456470
   0.0800    443838
   0.1200    426900
   0.1600    417341
   0.2000    408525
   0.2400    392764
   0.2800    378118
   0.3200    366244
   0.3600    350270
   0.4000    335055
   0.4400    323181
   0.4800    311513
   0.5200    298675
   0.5600    285245
   0.6000    270836
   0.6400    263046
   0.6800    250793
   0.7200    239165
   0.7600    225174
   0.8000    214888
   0.8400    201158
   0.8800    187341
   0.9200    178208
   0.9600    165537
   1.0000    150890

File: rocking_scan_1_2.UXD
; C:\DIFFDAT1\Praktikum\Christian_Stefan\rocking_scan_1_2.raw(Diffrac Plus V1.01 file) converted by XCH V1.0
_FILEVERSION=2
_SITE='Deutschland'
_USER='Administrator'
_GONIOMETER_CODE=4885
; D8 Theta/Theta; Special
_SAMPLE_CHANGER_CODE=0
_ATTACHMENTS_CODE=0
_GONIOMETER_RADIUS=350
_FIXED_DIVSLIT=0.600000
_FIXED_SAMPLESLIT=0.000000
_FIXED_DETSLIT=11.66
_MONOCHROMATOR=0
; None
_THIN_FILM='N'
_BETA_FILTER='Y'
_FIXED_ANTISLIT=8.340000
_ANALYZER_CODE=0
; None
_DATEMEASURED='16-Oct-2023 10:18:20'
_WL_UNIT='A'
_WL1=1.540600
_WL2=1.544390
_WL3=1.392220
_WLRATIO=0.500000
_ANODE='Cu'
; (Data for Range number 1)
_DRIVE='THETA'
_STEPTIME=1.000000
_STEPSIZE=0.040000
_STEPMODE='C'
_START=-1.000000
_THETA=-1.000000
_2THETA=0.000000
_KHI=0.000000
_PHI=90
_X=1.524000
_Y=1.000000
_Z=0.249000
_DIVERGENCE=0.000000
_ANTISCATTER=0.000000
_DETECTOR=5
_DETECTORSLIT='unkn'
_AUX1=0.000000
_AUX2=0.000000
_AUX3=0.000000
_TIMESTARTED=3.000000
_TEMP_RATE=-1.000000
_TEMP_DELAY=-1.000000
_KV=40
_MA=35
_RANGE_WL=1.540600
_3DPLANE=0
_GONIOMETER=0.000000
_PSDCHANNEL0=0
_2THETACOUNTS
  -1.0000    117602
  -0.9600    125375
  -0.9200    136390
  -0.8800    148029
  -0.8400    160031
  -0.8000    172190
  -0.7600    183917
  -0.7200    194959
  -0.6800    224289
  -0.6400    231802
  -0.6000    248645
  -0.5600    262722
  -0.5200    274051
  -0.4800    289630
  -0.4400    305951
  -0.4000    316948
  -0.3600    336872
  -0.3200    349559
  -0.2800    369372
  -0.2400    385670
  -0.2000    399069
  -0.1600    416662
  -0.1200    430708
  -0.0800    445331
  -0.0400    460649
   0.0000    466313
   0.0400    448799
   0.0800    434279
   0.1200    420659
   0.1600    406984
   0.2000    394092
   0.2400    376238
   0.2800    360603
   0.3200    349046
   0.3600    331002
   0.4000    316190
   0.4400    302365
   0.4800    286478
   0.5200    271728
   0.5600    259878
   0.6000    246180
   0.6400    232181
   0.6800    220687
   0.7200    207091
   0.7600    193210
   0.8000    180096
   0.8400    166090
   0.8800    153149
   0.9200    142317
   0.9600    128546
   1.0000    117544

File: rocking_scan_3.UXD
; C:\DIFFDAT1\Praktikum\Christian_Stefan\rocking_scan_3.raw(Diffrac Plus V1.01 file) converted by XCH V1.0
_FILEVERSION=2
_SITE='Deutschland'
_USER='Administrator'
_GONIOMETER_CODE=4885
; D8 Theta/Theta; Special
_SAMPLE_CHANGER_CODE=0
_ATTACHMENTS_CODE=0
_GONIOMETER_RADIUS=350
_FIXED_DIVSLIT=0.600000
_FIXED_SAMPLESLIT=0.000000
_FIXED_DETSLIT=11.66
_MONOCHROMATOR=0
; None
_THIN_FILM='N'
_BETA_FILTER='Y'
_FIXED_ANTISLIT=8.340000
_ANALYZER_CODE=0
; None
_DATEMEASURED='16-Oct-2023 10:36:04'
_WL_UNIT='A'
_WL1=1.540600
_WL2=1.544390
_WL3=1.392220
_WLRATIO=0.500000
_ANODE='Cu'
; (Data for Range number 1)
_DRIVE='THETA'
_STEPTIME=0.999980
_STEPSIZE=0.005000
_STEPMODE='C'
_START=0.200000
_THETA=0.200000
_2THETA=0.500000
_KHI=0.000000
_PHI=90
_X=1.524000
_Y=1.000000
_Z=0.224000
_DIVERGENCE=0.000000
_ANTISCATTER=0.000000
_DETECTOR=5
_DETECTORSLIT='unkn'
_AUX1=0.000000
_AUX2=0.000000
_AUX3=0.000000
_TIMESTARTED=2.000000
_TEMP_RATE=-1.000000
_TEMP_DELAY=-1.000000
_KV=40
_MA=35
_RANGE_WL=1.540600
_3DPLANE=0
_GONIOMETER=0.499700
_PSDCHANNEL0=0
_2THETACOUNTS
   0.2000       763
   0.2050       677
   0.2100       701
   0.2150       697
   0.2200       675
   0.2250       694
   0.2300       608
   0.2350       609
   0.2400       638
   0.2450       613
   0.2500       573
   0.2550       592
   0.2600       589
   0.2650       594
   0.2700       591
   0.2750       550
   0.2800       625
   0.2850       598
   0.2900       526
   0.2950       581
   0.3000       551
   0.3050       545
   0.3100       548
   0.3150       543
   0.3200       573
   0.3250       551
   0.3300       574
   0.3350       505
   0.3400       540
   0.3450       553
   0.3500       512
   0.3550       569
   0.3600       581
   0.3650       559
   0.3700       537
   0.3750       567
   0.3800       594
   0.3850       532
   0.3900       563
   0.3950       514
   0.4000       534
   0.4050       550
   0.4100       551
   0.4150       571
   0.4200       564
   0.4250       538
   0.4300       518
   0.4350       591
   0.4400       566
   0.4450       555
   0.4500       578
   0.4550       557
   0.4600       541
   0.4650       572
   0.4700       565
   0.4750       513
   0.4800       516
   0.4850       584
   0.4900       554
   0.4950       549
   0.5000       547

File: z_scan_1.UXD
; C:\DIFFDAT1\Praktikum\Christian_Stefan\z_scan_1.raw(Diffrac Plus V1.01 file) converted by XCH V1.0
_FILEVERSION=2
_SITE='Deutschland'
_USER='Administrator'
_GONIOMETER_CODE=4885
; D8 Theta/Theta; Special
_SAMPLE_CHANGER_CODE=0
_ATTACHMENTS_CODE=0
_GONIOMETER_RADIUS=350
_FIXED_DIVSLIT=0.600000
_FIXED_SAMPLESLIT=0.000000
_FIXED_DETSLIT=11.66
_MONOCHROMATOR=0
; None
_THIN_FILM='N'
_BETA_FILTER='Y'
_FIXED_ANTISLIT=8.340000
_ANALYZER_CODE=0
; None
_DATEMEASURED='16-Oct-2023 10:04:07'
_WL_UNIT='A'
_WL1=1.540600
_WL2=1.544390
_WL3=1.392220
_WLRATIO=0.500000
_ANODE='Cu'
; (Data for Range number 1)
_DRIVE='Z'
_STEPTIME=1.000000
_STEPSIZE=0.040000
_STEPMODE='S'
_START=-1.000000
_THETA=0.000000
_2THETA=0.000000
_KHI=0.000000
_PHI=90
_X=1.524000
_Y=2.000000
_Z=-1.000000
_DIVERGENCE=0.000000
_ANTISCATTER=0.000000
_DETECTOR=5
_DETECTORSLIT='unkn'
_AUX1=0.000000
_AUX2=0.000000
_AUX3=0.000000
_TIMESTARTED=8.000000
_TEMP_RATE=-1.000000
_TEMP_DELAY=-1.000000
_KV=40
_MA=35
_RANGE_WL=1.540600
_3DPLANE=0
_GONIOMETER=0.000000
_PSDCHANNEL0=0
_2THETACOUNTS
  -1.0000   1080250
  -0.9600   1073550
  -0.9200   1076490
  -0.8800   1077840
  -0.8400   1075610
  -0.8000   1076230
  -0.7600   1075930
  -0.7200   1078690
  -0.6800   1074270
  -0.6400   1082020
  -0.6000   1077400
  -0.5600   1078350
  -0.5200   1084050
  -0.4800   1081000
  -0.4400   1074530
  -0.4000   1079410
  -0.3600   1083970
  -0.3200   1080090
  -0.2800   1074110
  -0.2400   1078260
  -0.2000   1079650
  -0.1600   1080340
  -0.1200   1078630
  -0.0800   1072700
  -0.0400   1051120
   0.0000   1028500
   0.0400    989096
   0.0800    929767
   0.1200    859654
   0.1600    761813
   0.2000    650233
   0.2400    538701
   0.2800    445078
   0.3200    346628
   0.3600    259175
   0.4000    178998
   0.4400    101104
   0.4800     48706
   0.5200     10171
   0.5600       942
   0.6000      1197
   0.6400      1529
   0.6800      1816
   0.7200      2442
   0.7600      3318
   0.8000      5655
   0.8400     15349
   0.8800     28269
   0.9200     36929

File: z_scan_3.UXD
; C:\DIFFDAT1\Praktikum\Christian_Stefan\z_scan_3.raw(Diffrac Plus V1.01 file) converted by XCH V1.0
_FILEVERSION=2
_SITE='Deutschland'
_USER='Administrator'
_GONIOMETER_CODE=4885
; D8 Theta/Theta; Special
_SAMPLE_CHANGER_CODE=0
_ATTACHMENTS_CODE=0
_GONIOMETER_RADIUS=350
_FIXED_DIVSLIT=0.600000
_FIXED_SAMPLESLIT=0.000000
_FIXED_DETSLIT=11.66
_MONOCHROMATOR=0
; None
_THIN_FILM='N'
_BETA_FILTER='Y'
_FIXED_ANTISLIT=8.340000
_ANALYZER_CODE=0
; None
_DATEMEASURED='16-Oct-2023 10:32:29'
_WL_UNIT='A'
_WL1=1.540600
_WL2=1.544390
_WL3=1.392220
_WLRATIO=0.500000
_ANODE='Cu'
; (Data for Range number 1)
_DRIVE='Z'
_STEPTIME=1.000000
_STEPSIZE=0.020000
_STEPMODE='S'
_START=-0.500000
_THETA=0.000000
_2THETA=0.300000
_KHI=0.000000
_PHI=90
_X=1.524000
_Y=1.000000
_Z=-0.500000
_DIVERGENCE=0.000000
_ANTISCATTER=0.000000
_DETECTOR=5
_DETECTORSLIT='unkn'
_AUX1=0.000000
_AUX2=0.000000
_AUX3=0.000000
_TIMESTARTED=2.000000
_TEMP_RATE=-1.000000
_TEMP_DELAY=-1.000000
_KV=40
_MA=35
_RANGE_WL=1.540600
_3DPLANE=0
_GONIOMETER=0.300000
_PSDCHANNEL0=0
_2THETACOUNTS
  -0.5000      3216
  -0.4800      3305
  -0.4600      3362
  -0.4400      3446
  -0.4200      3479
  -0.4000      3585
  -0.3800      3657
  -0.3600      4039
  -0.3400      4541
  -0.3200      4953
  -0.3000      5834
  -0.2800      6590
  -0.2600      8166
  -0.2400      9543
  -0.2200     11147
  -0.2000     13457
  -0.1800     16347
  -0.1600     19534
  -0.1400     22850
  -0.1200     25976
  -0.1000     28775
  -0.0800     32219
  -0.0600     36089
  -0.0400     42867
  -0.0200     51509
   0.0000     62105
   0.0200     73237
   0.0400     85253
   0.0600     95967
   0.0800    101261
   0.1000    101325
   0.1200    101424
   0.1400    104678
   0.1600    111049
   0.1800    118950
   0.2000    125751
   0.2200    132848
   0.2400    135496
   0.2600    133934
   0.2800    125518
   0.3000    113533
   0.3200     99862
   0.3400     85036
   0.3600     69832
   0.3800     56654
   0.4000     46525
   0.4200     39605
   0.4400     35647
   0.4600     32059
   0.4800     28551
   0.5000     25834