Folder: FP/V44/datastefan

Note: README.md
# FP

Hier schreiben wir unsere Berichte f√ºr das Physik Fortgeschrittenen Praktikum :D

File: detector_scan_1.UXD
; C:\DIFFDAT1\Praktikum\Christian_Stefan\detector_scan_1.raw(Diffrac Plus V1.01 file) converted by XCH V1.0
_FILEVERSION=2
_SITE='Deutschland'
_USER='Administrator'
_GONIOMETER_CODE=4885
; D8 Theta/Theta; Special
_SAMPLE_CHANGER_CODE=0
_ATTACHMENTS_CODE=0
_GONIOMETER_RADIUS=350
_FIXED_DIVSLIT=0.600000
_FIXED_SAMPLESLIT=0.000000
_FIXED_DETSLIT=11.66
_MONOCHROMATOR=0
; None
_THIN_FILM='N'
_BETA_FILTER='Y'
_FIXED_ANTISLIT=8.340000
_ANALYZER_CODE=0
; None
_DATEMEASURED='16-Oct-2023 09:56:28'
_WL_UNIT='A'
_WL1=1.540600
_WL2=1.544390
_WL3=1.392220
_WLRATIO=0.500000
_ANODE='Cu'
; (Data for Range number 1)
_DRIVE='2THETA'
_STEPTIME=1.000000
_STEPSIZE=0.020000
_STEPMODE='S'
_START=-0.500000
_THETA=0.000000
_2THETA=-0.500000
_KHI=0.000000
_PHI=90
_X=1.524000
_Y=2.000000
_Z=-19
_DIVERGENCE=0.000000
_ANTISCATTER=0.000000
_DETECTOR=5
_DETECTORSLIT='unkn'
_AUX1=0.000000
_AUX2=0.000000
_AUX3=0.000000
_TIMESTARTED=3.000000
_TEMP_RATE=-1.000000
_TEMP_DELAY=-1.000000
_KV=40
_MA=35
_RANGE_WL=1.540600
_3DPLANE=0
_GONIOMETER=-0.500000
_PSDCHANNEL0=0
_2THETACOUNTS
  -0.5000       530
  -0.4800       661
  -0.4600       840
  -0.4400      1044
  -0.4200      1334
  -0.4000      1748
  -0.3800      2330
  -0.3600      2861
  -0.3400      3541
  -0.3200      4240
  -0.3000      5352
  -0.2800      7143
  -0.2600      9158
  -0.2400     11838
  -0.2200     15130
  -0.2000     20745
  -0.1800     28688
  -0.1600     41025
  -0.1400     63994
  -0.1200    107234
  -0.1000    275497
  -0.0800    538693
  -0.0600    756741
  -0.0400    907797
  -0.0200   1029830
   0.0000   1072290
   0.0200   1032550
   0.0400    921448
   0.0600    739566
   0.0800    480976
   0.1000    254009
   0.1200    132176
   0.1400     76680
   0.1600     58485
   0.1800     45313
   0.2000     16243
   0.2200      8839
   0.2400      6069
   0.2600      4441
   0.2800      3537
   0.3000      2925
   0.3200      1968
   0.3400      1394
   0.3600      1190
   0.3800       977
   0.4000       862
   0.4200       795
   0.4400       668
   0.4600       597
   0.4800       596
   0.5000       501

File: rocking_scan_2.UXD
; C:\DIFFDAT1\Praktikum\Christian_Stefan\rocking_scan_2.raw(Diffrac Plus V1.01 file) converted by XCH V1.0
_FILEVERSION=2
_SITE='Deutschland'
_USER='Administrator'
_GONIOMETER_CODE=4885
; D8 Theta/Theta; Special
_SAMPLE_CHANGER_CODE=0
_ATTACHMENTS_CODE=0
_GONIOMETER_RADIUS=350
_FIXED_DIVSLIT=0.600000
_FIXED_SAMPLESLIT=0.000000
_FIXED_DETSLIT=11.66
_MONOCHROMATOR=0
; None
_THIN_FILM='N'
_BETA_FILTER='Y'
_FIXED_ANTISLIT=8.340000
_ANALYZER_CODE=0
; None
_DATEMEASURED='16-Oct-2023 10:27:25'
_WL_UNIT='A'
_WL1=1.540600
_WL2=1.544390
_WL3=1.392220
_WLRATIO=0.500000
_ANODE='Cu'
; (Data for Range number 1)
_DRIVE='THETA'
_STEPTIME=0.999980
_STEPSIZE=0.005000
_STEPMODE='C'
_START=0.000000
_THETA=0.000000
_2THETA=0.300000
_KHI=0.000000
_PHI=90
_X=1.524000
_Y=1.000000
_Z=0.228000
_DIVERGENCE=0.000000
_ANTISCATTER=0.000000
_DETECTOR=5
_DETECTORSLIT='unkn'
_AUX1=0.000000
_AUX2=0.000000
_AUX3=0.000000
_TIMESTARTED=2.000000
_TEMP_RATE=-1.000000
_TEMP_DELAY=-1.000000
_KV=40
_MA=35
_RANGE_WL=1.540600
_3DPLANE=0
_GONIOMETER=0.299600
_PSDCHANNEL0=0
_2THETACOUNTS
   0.0000      3041
   0.0050      3060
   0.0100      3014
   0.0150      3048
   0.0200      3182
   0.0250      2981
   0.0300      3141
   0.0350      3154
   0.0400      3180
   0.0450      3143
   0.0500      3390
   0.0550      3484
   0.0600      3366
   0.0650      3563
   0.0700      3944
   0.0750      4383
   0.0800      5237
   0.0850      6111
   0.0900      7417
   0.0950      8858
   0.1000     10212
   0.1050     12667
   0.1100     16536
   0.1150     21289
   0.1200     26940
   0.1250     33573
   0.1300     46575
   0.1350     72094
   0.1400     94114
   0.1450    104099
   0.1500    119931
   0.1550    134335
   0.1600    113523
   0.1650     71379
   0.1700     42387
   0.1750     30113
   0.1800     23915
   0.1850     20152
   0.1900     16493
   0.1950     14097
   0.2000     11253
   0.2050      9561
   0.2100      7565
   0.2150      5698
   0.2200      4763
   0.2250      4484
   0.2300      4079
   0.2350      3889
   0.2400      3754
   0.2450      3627
   0.2500      3613
   0.2550      3371
   0.2600      3225
   0.2650      3394
   0.2700      3308
   0.2750      3162
   0.2800      3180
   0.2850      3059
   0.2900      3137
   0.2950      3117
   0.3000      2974

File: rocking_scan_2_better.UXD
; C:\DIFFDAT1\Praktikum\Christian_Stefan\rocking_scan_2_better.raw(Diffrac Plus V1.01 file) converted by XCH V1.0
_FILEVERSION=2
_SITE='Deutschland'
_USER='Administrator'
_GONIOMETER_CODE=4885
; D8 Theta/Theta; Special
_SAMPLE_CHANGER_CODE=0
_ATTACHMENTS_CODE=0
_GONIOMETER_RADIUS=350
_FIXED_DIVSLIT=0.600000
_FIXED_SAMPLESLIT=0.000000
_FIXED_DETSLIT=11.66
_MONOCHROMATOR=0
; None
_THIN_FILM='N'
_BETA_FILTER='Y'
_FIXED_ANTISLIT=8.340000
_ANALYZER_CODE=0
; None
_DATEMEASURED='16-Oct-2023 11:07:59'
_WL_UNIT='A'
_WL1=1.540600
_WL2=1.544390
_WL3=1.392220
_WLRATIO=0.500000
_ANODE='Cu'
; (Data for Range number 1)
_DRIVE='THETA'
_STEPTIME=0.999980
_STEPSIZE=0.005000
_STEPMODE='C'
_START=0.000000
_THETA=0.000000
_2THETA=0.500000
_KHI=0.000000
_PHI=90
_X=1.577000
_Y=1.000000
_Z=0.275000
_DIVERGENCE=0.000000
_ANTISCATTER=0.000000
_DETECTOR=5
_DETECTORSLIT='unkn'
_AUX1=0.000000
_AUX2=0.000000
_AUX3=0.000000
_TIMESTARTED=2.000000
_TEMP_RATE=-1.000000
_TEMP_DELAY=-1.000000
_KV=40
_MA=35
_RANGE_WL=1.540600
_3DPLANE=0
_GONIOMETER=0.499500
_PSDCHANNEL0=0
_2THETACOUNTS
   0.0000       550
   0.0050       534
   0.0100       557
   0.0150       551
   0.0200       534
   0.0250       535
   0.0300       522
   0.0350       550
   0.0400       551
   0.0450       555
   0.0500       550
   0.0550       523
   0.0600       547
   0.0650       555
   0.0700       568
   0.0750       514
   0.0800       523
   0.0850       522
   0.0900       569
   0.0950       575
   0.1000       567
   0.1050       565
   0.1100       524
   0.1150       600
   0.1200       645
   0.1250       649
   0.1300       617
   0.1350       676
   0.1400       643
   0.1450       718
   0.1500       715
   0.1550       774
   0.1600       800
   0.1650       839
   0.1700       890
   0.1750      1030
   0.1800      1124
   0.1850      1259
   0.1900      1449
   0.1950      1713
   0.2000      2131
   0.2050      2739
   0.2100      3882
   0.2150      5988
   0.2200      9449
   0.2250     13833
   0.2300     15923
   0.2350     17075
   0.2400     21118
   0.2450     27750
   0.2500     29635
   0.2550     25709
   0.2600     22451
   0.2650     20331
   0.2700     18699
   0.2750     14180
   0.2800     12038
   0.2850      9376
   0.2900      8050
   0.2950      7078
   0.3000      4686

File: x_scan_1.UXD
; C:\DIFFDAT1\Praktikum\Christian_Stefan\x_scan_1.raw(Diffrac Plus V1.01 file) converted by XCH V1.0
_FILEVERSION=2
_SITE='Deutschland'
_USER='Administrator'
_GONIOMETER_CODE=4885
; D8 Theta/Theta; Special
_SAMPLE_CHANGER_CODE=0
_ATTACHMENTS_CODE=0
_GONIOMETER_RADIUS=350
_FIXED_DIVSLIT=0.600000
_FIXED_SAMPLESLIT=0.000000
_FIXED_DETSLIT=11.66
_MONOCHROMATOR=0
; None
_THIN_FILM='N'
_BETA_FILTER='Y'
_FIXED_ANTISLIT=8.340000
_ANALYZER_CODE=0
; None
_DATEMEASURED='16-Oct-2023 10:10:16'
_WL_UNIT='A'
_WL1=1.540600
_WL2=1.544390
_WL3=1.392220
_WLRATIO=0.500000
_ANODE='Cu'
; (Data for Range number 1)
_DRIVE='X'
_STEPTIME=1.000000
_STEPSIZE=1.000000
_STEPMODE='S'
_START=-20
_THETA=0.000000
_2THETA=0.000000
_KHI=0.000000
_PHI=90
_X=-20
_Y=2.000000
_Z=0.249000
_DIVERGENCE=0.000000
_ANTISCATTER=0.000000
_DETECTOR=5
_DETECTORSLIT='unkn'
_AUX1=0.000000
_AUX2=0.000000
_AUX3=0.000000
_TIMESTARTED=4.000000
_TEMP_RATE=-1.000000
_TEMP_DELAY=-1.000000
_KV=40
_MA=35
_RANGE_WL=1.540600
_3DPLANE=0
_GONIOMETER=0.000000
_PSDCHANNEL0=0
_2THETACOUNTS
 -20.0000   1078900
 -19.0000   1077920
 -18.0000   1078050
 -17.0000   1081230
 -16.0000   1081240
 -15.0000   1079010
 -14.0000   1082060
 -13.0000   1078480
 -12.0000   1078000
 -11.0000   1075730
 -10.0000    935076
  -9.0000    484870
  -8.0000    489452
  -7.0000    490922
  -6.0000    496389
  -5.0000    498395
  -4.0000    500433
  -3.0000    502140
  -2.0000    502416
  -1.0000    502748
   0.0000    509100
   1.0000    508183
   2.0000    515357
   3.0000    512315
   4.0000    515878
   5.0000    517719
   6.0000    521479
   7.0000    522143
   8.0000    526022
   9.0000    528478
  10.0000    534340
  11.0000    530580
  12.0000    536078
  13.0000   1062240
  14.0000   1076380
  15.0000   1072560
  16.0000   1076360
  17.0000   1086120
  18.0000   1080950
  19.0000   1078570
  20.0000   1081190

File: z_scan_2.UXD
; C:\DIFFDAT1\Praktikum\Christian_Stefan\z_scan_2.raw(Diffrac Plus V1.01 file) converted by XCH V1.0
_FILEVERSION=2
_SITE='Deutschland'
_USER='Administrator'
_GONIOMETER_CODE=4885
; D8 Theta/Theta; Special
_SAMPLE_CHANGER_CODE=0
_ATTACHMENTS_CODE=0
_GONIOMETER_RADIUS=350
_FIXED_DIVSLIT=0.600000
_FIXED_SAMPLESLIT=0.000000
_FIXED_DETSLIT=11.66
_MONOCHROMATOR=0
; None
_THIN_FILM='N'
_BETA_FILTER='Y'
_FIXED_ANTISLIT=8.340000
_ANALYZER_CODE=0
; None
_DATEMEASURED='16-Oct-2023 10:21:27'
_WL_UNIT='A'
_WL1=1.540600
_WL2=1.544390
_WL3=1.392220
_WLRATIO=0.500000
_ANODE='Cu'
; (Data for Range number 1)
_DRIVE='Z'
_STEPTIME=1.000000
_STEPSIZE=0.020000
_STEPMODE='S'
_START=-0.500000
_THETA=0.000000
_2THETA=0.000000
_KHI=0.000000
_PHI=90
_X=1.524000
_Y=1.000000
_Z=-0.500000
_DIVERGENCE=0.000000
_ANTISCATTER=0.000000
_DETECTOR=5
_DETECTORSLIT='unkn'
_AUX1=0.000000
_AUX2=0.000000
_AUX3=0.000000
_TIMESTARTED=3.000000
_TEMP_RATE=-1.000000
_TEMP_DELAY=-1.000000
_KV=40
_MA=35
_RANGE_WL=1.540600
_3DPLANE=0
_GONIOMETER=0.000000
_PSDCHANNEL0=0
_2THETACOUNTS
  -0.5000   1082470
  -0.4800   1083270
  -0.4600   1078770
  -0.4400   1081960
  -0.4200   1076860
  -0.4000   1083930
  -0.3800   1079310
  -0.3600   1077620
  -0.3400   1078260
  -0.3200   1082360
  -0.3000   1078690
  -0.2800   1079550
  -0.2600   1084640
  -0.2400   1073320
  -0.2200   1085390
  -0.2000   1079690
  -0.1800   1077380
  -0.1600   1079230
  -0.1400   1083480
  -0.1200   1084570
  -0.1000   1078580
  -0.0800   1070880
  -0.0600   1064010
  -0.0400   1045060
  -0.0200   1032020
   0.0000   1016730
   0.0200    996877
   0.0400    972293
   0.0600    946286
   0.0800    913193
   0.1000    880621
   0.1200    831831
   0.1400    784280
   0.1600    732164
   0.1800    672527
   0.2000    617654
   0.2200    565877
   0.2400    510846
   0.2600    462656
   0.2800    417784
   0.3000    372667
   0.3200    323426
   0.3400    282670
   0.3600    239931
   0.3800    200218
   0.4000    158537
   0.4200    119320
   0.4400     90330
   0.4600     62751
   0.4800     40484
   0.5000     22540